File: VizBAT/battery_structure_performance.csv
Unnamed: 0,avg_bond_length,std_bond_length,skew_bond_length,distortion_index,quadratic_elongation,n_corner_pairs,n_edge_pairs,n_face_pairs,n_atoms_in_cell,avg_bond_angles,std_bond_length_angles,skew_bond_length_angles,volumes,bond_angle_variance,central_atoms,polyhedra_formula,poly_types,n_atoms_per_cell,Formula,cif_name,Structure type,Mol wt (g/mol),Central Atom(s),Total Number of TM,Capacity (mAh/g),1st Discharge (mAh/g),1st Charge (mAh/g),1st Charge/1st Discharge Ratio,2nd Discharge (mAh/g),2nd/1st Discharge Ratio,x moles of Li+,Li/TM ,Rate of cycling (nC),m (width),n (height),Repeat (e.g. ? or 1 ),Starting Voltage (V),Ending Voltage (V),Cycling Shape,Paper with reported capacity,Notes,Structure,Area,Perimeter
1,1.9027,0.01697078,0.707107,0.008409212,1.20614,0.125,0.03125,0,64,89.9585,2.18142,0.056972,9.0069,5.19308,W,O6,Octahedron,64,WO3,(Nb0.118 W0.882)O2.941,,,,,,,,,,,,,,,,,,,,,,Wadsley-Roth,0,0
2,1.9027,0.01697078,0.707107,0.008409212,1.20614,0.125,0.03125,0,64,89.9585,2.18142,0.056972,9.0069,5.19308,W,O6,Octahedron,64,WO3,(Nb0.118 W0.882)O2.941,,,,,,,,,,,,,,,,,,,,,,Wadsley-Roth,0,0
3,1.9027,0.01697078,0.707107,0.008409212,1.20614,0.6875,0.171875,0,64,89.9585,2.18142,0.056972,9.0069,5.19308,W,O6,Octahedron,64,WO3,(Nb0.118 W0.882)O2.941,,,,,,,,,,,,,,,,,,,,,,Wadsley-Roth,0,0
4,1.9027,0.01697078,0.707107,0.008409212,1.20614,0.0625,0.015625,0,64,89.9585,2.18142,0.056972,9.0069,5.19308,W,O6,Octahedron,64,WO3,(Nb0.118 W0.882)O2.941,,,,,,,,,,,,,,,,,,,,,,Wadsley-Roth,0,0
5,1.86529,0.112268,-1.76826,0.0447474,1.22207,0.111111,0.0444444,0,180,90.2512,5.65833,-0.1325,8.3206,34.9962,V,O6,Octahedron,180,V3O7,(W0.2V0.8)3O7,WR,344.56,"W,V",1,180,286.96,267.39,0.931802,263.81,0.919327,2.67105,2.67105,5,4,4,1,1,3,Symmetric,10.1021/acs.chemmater.0c03496?ref=pdf,Capacity approximated from Fig 5c in paper,Wadsley-Roth,16,8
6,1.86529,0.112268,-1.76826,0.0447474,1.22207,0.0277778,0.0111111,0,180,90.2512,5.65833,-0.1325,8.3206,34.9962,V,O6,Octahedron,180,V3O7,(W0.2V0.8)3O7,WR,344.56,"W,V",1,180,286.96,267.39,0.931802,263.81,0.919327,2.67105,2.67105,5,4,4,1,1,3,Symmetric,10.1021/acs.chemmater.0c03496?ref=pdf,Capacity approximated from Fig 5c in paper,Wadsley-Roth,16,8
7,1.86529,0.112268,-1.76826,0.0447474,1.22207,0.166667,0.0666667,0,180,90.2512,5.65833,-0.1325,8.3206,34.9962,V,O6,Octahedron,180,V3O7,(W0.2V0.8)3O7,WR,344.56,"W,V",1,180,286.96,267.39,0.931802,263.81,0.919327,2.67105,2.67105,5,4,4,1,1,3,Symmetric,10.1021/acs.chemmater.0c03496?ref=pdf,Capacity approximated from Fig 5c in paper,Wadsley-Roth,16,8
8,1.86529,0.112268,-1.76826,0.0447474,1.22207,0.194444,0.0777778,0,180,90.2512,5.65833,-0.1325,8.3206,34.9962,V,O6,Octahedron,180,V3O7,(W0.2V0.8)3O7,WR,344.56,"W,V",1,180,286.96,267.39,0.931802,263.81,0.919327,2.67105,2.67105,5,4,4,1,1,3,Symmetric,10.1021/acs.chemmater.0c03496?ref=pdf,Capacity approximated from Fig 5c in paper,Wadsley-Roth,16,8
9,1.86529,0.112268,-1.76826,0.0447474,1.22207,0.0833333,0.0333333,0,180,90.2512,5.65833,-0.1325,8.3206,34.9962,V,O6,Octahedron,180,V3O7,(W0.2V0.8)3O7,WR,344.56,"W,V",1,180,286.96,267.39,0.931802,263.81,0.919327,2.67105,2.67105,5,4,4,1,1,3,Symmetric,10.1021/acs.chemmater.0c03496?ref=pdf,Capacity approximated from Fig 5c in paper,Wadsley-Roth,16,8
10,1.86529,0.112268,-1.76826,0.0447474,1.22207,0.0833333,0.0333333,0,180,90.2512,5.65833,-0.1325,8.3206,34.9962,V,O6,Octahedron,180,V3O7,(W0.2V0.8)3O7,WR,344.56,"W,V",1,180,286.96,267.39,0.931802,263.81,0.919327,2.67105,2.67105,5,4,4,1,1,3,Symmetric,10.1021/acs.chemmater.0c03496?ref=pdf,Capacity approximated from Fig 5c in paper,Wadsley-Roth,16,8
11,1.98606,0.230014,0.186231,0.0990328,1.25814,0.111111,0.138889,0,180,90.0184,4.8205,-0.0459914,9.61489,25.35,V,O6,Octahedron,180,V3O7,(W0.2V0.8)3O7,WR,344.56,"W,V",1,180,286.96,267.39,0.931802,263.81,0.919327,2.67105,2.67105,5,4,4,1,1,3,Symmetric,10.1021/acs.chemmater.0c03496?ref=pdf,Capacity approximated from Fig 5c in paper,Wadsley-Roth,16,8
12,1.98606,0.230014,0.186231,0.0990328,1.25814,0.222222,0.277778,0,180,90.0184,4.8205,-0.0459914,9.61489,25.35,V,O6,Octahedron,180,V3O7,(W0.2V0.8)3O7,WR,344.56,"W,V",1,180,286.96,267.39,0.931802,263.81,0.919327,2.67105,2.67105,5,4,4,1,1,3,Symmetric,10.1021/acs.chemmater.0c03496?ref=pdf,Capacity approximated from Fig 5c in paper,Wadsley-Roth,16,8
13,1.98606,0.230014,0.186231,0.0990328,1.25814,0.155556,0.194444,0,180,90.0184,4.8205,-0.0459914,9.61489,25.35,V,O6,Octahedron,180,V3O7,(W0.2V0.8)3O7,WR,344.56,"W,V",1,180,286.96,267.39,0.931802,263.81,0.919327,2.67105,2.67105,5,4,4,1,1,3,Symmetric,10.1021/acs.chemmater.0c03496?ref=pdf,Capacity approximated from Fig 5c in paper,Wadsley-Roth,16,8
14,1.98606,0.230014,0.186231,0.0990328,1.25814,0.0444444,0.0555556,0,180,90.0184,4.8205,-0.0459914,9.61489,25.35,V,O6,Octahedron,180,V3O7,(W0.2V0.8)3O7,WR,344.56,"W,V",1,180,286.96,267.39,0.931802,263.81,0.919327,2.67105,2.67105,5,4,4,1,1,3,Symmetric,10.1021/acs.chemmater.0c03496?ref=pdf,Capacity approximated from Fig 5c in paper,Wadsley-Roth,16,8
15,2.03923,0.128455,-0.707107,0.0593892,1.19544,0.1,0,0,180,90,5.15047e-14,,11.2375,2.93743e-27,V,O6,Octahedron,180,V3O7,(W0.2V0.8)3O7,WR,344.56,"W,V",1,180,286.96,267.39,0.931802,263.81,0.919327,2.67105,2.67105,5,4,4,1,1,3,Symmetric,10.1021/acs.chemmater.0c03496?ref=pdf,Capacity approximated from Fig 5c in paper,Wadsley-Roth,16,8
16,2.03923,0.128455,-0.707107,0.0593892,1.19544,0.1,0,0,180,90,2.24821e-14,,11.2375,5.93606e-28,V,O6,Octahedron,180,V3O7,(W0.2V0.8)3O7,WR,344.56,"W,V",1,180,286.96,267.39,0.931802,263.81,0.919327,2.67105,2.67105,5,4,4,1,1,3,Symmetric,10.1021/acs.chemmater.0c03496?ref=pdf,Capacity approximated from Fig 5c in paper,Wadsley-Roth,16,8
17,1.93611,0.174464,-0.0456094,0.0706241,1.21599,0.0344828,0.0344828,0,348,90.1294,4.48028,0.189926,9.37472,21.916,Nb,O6,Octahedron,348,Nb25O62,Al0.5Nb24.5O62,,,,,,,,,,,,,,,,,,,,,,Wadsley-Roth,0,0
18,1.93611,0.174464,-0.0456094,0.0706241,1.21599,0.0344828,0.0344828,0,348,90.1294,4.48028,0.189926,9.37472,21.916,Nb,O6,Octahedron,348,Nb25O62,Al0.5Nb24.5O62,,,,,,,,,,,,,,,,,,,,,,Wadsley-Roth,0,0
19,1.95243,0.134109,-1.66115,0.05036644,1.23394,0.0287356,0.005747126,0,348,90.2297,6.0639,0.183963,9.40473,40.1713,Nb,O6,Octahedron,348,Nb25O62,Al0.5Nb24.5O62,,,,,,,,,,,,,,,,,,,,,,Wadsley-Roth,0,0
20,1.95243,0.134109,-1.66115,0.05036644,1.23394,0.0287356,0.005747126,0,348,90.2297,6.0639,0.183963,9.40473,40.1713,Nb,O6,Octahedron,348,Nb25O62,Al0.5Nb24.5O62,,,,,,,,,,,,,,,,,,,,,,Wadsley-Roth,0,0
21,1.95243,0.134109,-1.66115,0.05036644,1.23394,0.0431034,0.00862069,0,348,90.2297,6.0639,0.183963,9.40473,40.1713,Nb,O6,Octahedron,348,Nb25O62,Al0.5Nb24.5O62,,,,,,,,,,,,,,,,,,,,,,Wadsley-Roth,0,0
22,1.95243,0.134109,-1.66115,0.05036644,1.23394,0.0143678,0.002873563,0,348,90.2297,6.0639,0.183963,9.40473,40.1713,Nb,O6,Octahedron,348,Nb25O62,Al0.5Nb24.5O62,,,,,,,,,,,,,,,,,,,,,,Wadsley-Roth,0,0
23,1.96474,0.174683,0.225275,0.0843201,1.26574,0.0172414,0.0172414,0,348,95.1917,18.4941,1.68912,9.22481,399.735,Nb,O6,Octahedron,348,Nb25O62,Al0.5Nb24.5O62,,,,,,,,,,,,,,,,,,,,,,Wadsley-Roth,0,0
24,1.96474,0.174683,0.225275,0.0843201,1.26574,0.0258621,0.0258621,0,348,95.1917,18.4941,1.68912,9.22481,399.735,Nb,O6,Octahedron,348,Nb25O62,Al0.5Nb24.5O62,,,,,,,,,,,,,,,,,,,,,,Wadsley-Roth,0,0
25,1.96474,0.174683,0.225275,0.0843201,1.26574,0.00862069,0.00862069,0,348,95.1917,18.4941,1.68912,9.22481,399.735,Nb,O6,Octahedron,348,Nb25O62,Al0.5Nb24.5O62,,,,,,,,,,,,,,,,,,,,,,Wadsley-Roth,0,0
26,1.96474,0.174683,0.225275,0.0843201,1.26574,0.00862069,0.00862069,0,348,95.1917,18.4941,1.68912,9.22481,399.735,Nb,O6,Octahedron,348,Nb25O62,Al0.5Nb24.5O62,,,,,,,,,,,,,,,,,,,,,,Wadsley-Roth,0,0
27,1.96474,0.174683,0.225275,0.0843201,1.26574,0.00862069,0.00862069,0,348,95.1917,18.4941,1.68912,9.22481,399.735,Nb,O6,Octahedron,348,Nb25O62,Al0.5Nb24.5O62,,,,,,,,,,,,,,,,,,,,,,Wadsley-Roth,0,0
28,1.97159,0.289319,-0.493527,0.0968605,1.25477,0.00862069,0.00862069,0,348,90.4145,7.69007,-0.62678,9.44421,64.7007,Nb,O6,Octahedron,348,Nb25O62,Al0.5Nb24.5O62,,,,,,,,,,,,,,,,,,,,,,Wadsley-Roth,0,0
29,1.97159,0.289319,-0.493527,0.0968605,1.25477,0.0172414,0.0172414,0,348,90.4145,7.69007,-0.62678,9.44421,64.7007,Nb,O6,Octahedron,348,Nb25O62,Al0.5Nb24.5O62,,,,,,,,,,,,,,,,,,,,,,Wadsley-Roth,0,0
30,1.97159,0.289319,-0.493527,0.0968605,1.25477,0.0258621,0.0258621,0,348,90.4145,7.69007,-0.62678,9.44421,64.7007,Nb,O6,Octahedron,348,Nb25O62,Al0.5Nb24.5O62,,,,,,,,,,,,,,,,,,,,,,Wadsley-Roth,0,0
31,1.97159,0.289319,-0.493527,0.0968605,1.25477,0.00862069,0.00862069,0,348,90.4145,7.69007,-0.62678,9.44421,64.7007,Nb,O6,Octahedron,348,Nb25O62,Al0.5Nb24.5O62,,,,,,,,,,,,,,,,,,,,,,Wadsley-Roth,0,0
32,1.97159,0.289319,-0.493527,0.0968605,1.25477,0.00862069,0.00862069,0,348,90.4145,7.69007,-0.62678,9.44421,64.7007,Nb,O6,Octahedron,348,Nb25O62,Al0.5Nb24.5O62,,,,,,,,,,,,,,,,,,,,,,Wadsley-Roth,0,0
33,1.99062,0.265399,-0.728136,0.100433,1.31292,0.0114943,0.00862069,0,348,90.1479,7.26519,-0.592664,9.0817,57.6054,Nb,O6,Octahedron,348,Nb25O62,Al0.5Nb24.5O62,,,,,,,,,,,,,,,,,,,,,,Wadsley-Roth,0,0
34,1.99062,0.265399,-0.728136,0.100433,1.31292,0.045977,0.0344828,0,348,90.1479,7.26519,-0.592664,9.0817,57.6054,Nb,O6,Octahedron,348,Nb25O62,Al0.5Nb24.5O62,,,,,,,,,,,,,,,,,,,,,,Wadsley-Roth,0,0
35,1.99062,0.265399,-0.728136,0.100433,1.31292,0.0229885,0.0172414,0,348,90.1479,7.26519,-0.592664,9.0817,57.6054,Nb,O6,Octahedron,348,Nb25O62,Al0.5Nb24.5O62,,,,,,,,,,,,,,,,,,,,,,Wadsley-Roth,0,0
36,1.99062,0.265399,-0.728136,0.100433,1.31292,0.0114943,0.00862069,0,348,90.1479,7.26519,-0.592664,9.0817,57.6054,Nb,O6,Octahedron,348,Nb25O62,Al0.5Nb24.5O62,,,,,,,,,,,,,,,,,,,,,,Wadsley-Roth,0,0
37,2.03498,0.120865,0.209619,0.0475209,1.2683,0.00862069,0.0114943,0,348,95.4428,19.2761,2.15131,10.2189,434.626,Nb,O6,Octahedron,348,Nb25O62,Al0.5Nb24.5O62,,,,,,,,,,,,,,,,,,,,,,Wadsley-Roth,0,0
38,2.03498,0.120865,0.209619,0.0475209,1.2683,0.0172414,0.0229885,0,348,95.4428,19.2761,2.15131,10.2189,434.626,Nb,O6,Octahedron,348,Nb25O62,Al0.5Nb24.5O62,,,,,,,,,,,,,,,,,,,,,,Wadsley-Roth,0,0
39,2.03498,0.120865,0.209619,0.0475209,1.2683,0.0258621,0.0344828,0,348,95.4428,19.2761,2.15131,10.2189,434.626,Nb,O6,Octahedron,348,Nb25O62,Al0.5Nb24.5O62,,,,,,,,,,,,,,,,,,,,,,Wadsley-Roth,0,0
40,2.03498,0.120865,0.209619,0.0475209,1.2683,0.0172414,0.0229885,0,348,95.4428,19.2761,2.15131,10.2189,434.626,Nb,O6,Octahedron,348,Nb25O62,Al0.5Nb24.5O62,,,,,,,,,,,,,,,,,,,,,,Wadsley-Roth,0,0
41,2.04043,0.23362,0.724375,0.0887586,1.24064,0.045977,0.0344828,0,348,90.0496,4.21434,-0.342098,10.6476,19.378,Nb,O6,Octahedron,348,Nb25O62,Al0.5Nb24.5O62,,,,,,,,,,,,,,,,,,,,,,Wadsley-Roth,0,0
42,2.04043,0.23362,0.724375,0.0887586,1.24064,0.0344828,0.0258621,0,348,90.0496,4.21434,-0.342098,10.6476,19.378,Nb,O6,Octahedron,348,Nb25O62,Al0.5Nb24.5O62,,,,,,,,,,,,,,,,,,,,,,Wadsley-Roth,0,0
43,2.04043,0.23362,0.724375,0.0887586,1.24064,0.0114943,0.00862069,0,348,90.0496,4.21434,-0.342098,10.6476,19.378,Nb,O6,Octahedron,348,Nb25O62,Al0.5Nb24.5O62,,,,,,,,,,,,,,,,,,,,,,Wadsley-Roth,0,0
44,2.04112,0.170988,-0.247356,0.0715993,1.26378,0.0172414,0.0172414,0,348,95.3918,18.6107,1.52242,10.3672,406.715,Nb,O6,Octahedron,348,Nb25O62,Al0.5Nb24.5O62,,,,,,,,,,,,,,,,,,,,,,Wadsley-Roth,0,0
45,2.04112,0.170988,-0.247356,0.0715993,1.26378,0.0517241,0.0517241,0,348,95.3918,18.6107,1.52242,10.3672,406.715,Nb,O6,Octahedron,348,Nb25O62,Al0.5Nb24.5O62,,,,,,,,,,,,,,,,,,,,,,Wadsley-Roth,0,0
46,2.04721,0.144388,0.634728,0.0518979,1.26651,0.0258621,0.0344828,0,348,95.4709,19.6308,2.57146,10.4263,449.906,Nb,O6,Octahedron,348,Nb25O62,Al0.5Nb24.5O62,,,,,,,,,,,,,,,,,,,,,,Wadsley-Roth,0,0
47,2.04721,0.144388,0.634728,0.0518979,1.26651,0.0172414,0.0229885,0,348,95.4709,19.6308,2.57146,10.4263,449.906,Nb,O6,Octahedron,348,Nb25O62,Al0.5Nb24.5O62,,,,,,,,,,,,,,,,,,,,,,Wadsley-Roth,0,0
48,2.04721,0.144388,0.634728,0.0518979,1.26651,0.0258621,0.0344828,0,348,95.4709,19.6308,2.57146,10.4263,449.906,Nb,O6,Octahedron,348,Nb25O62,Al0.5Nb24.5O62,,,,,,,,,,,,,,,,,,,,,,Wadsley-Roth,0,0
49,2.10025,0.159401,0.728443,0.070396,1.22877,0.0344828,0.0344828,0,348,90.2958,6.25288,-0.16492,11.7807,42.7484,Nb,O6,Octahedron,348,Nb25O62,Al0.5Nb24.5O62,,,,,,,,,,,,,,,,,,,,,,Wadsley-Roth,0,0
50,2.10025,0.159401,0.728443,0.070396,1.22877,0.0344828,0.0344828,0,348,90.2958,6.25288,-0.16492,11.7807,42.7484,Nb,O6,Octahedron,348,Nb25O62,Al0.5Nb24.5O62,,,,,,,,,,,,,,,,,,,,,,Wadsley-Roth,0,0
51,2.13938,0.172987,0.937157,0.0598105,1.2174,0.0114943,0.002873563,0,348,90.1048,5.16497,0.021399,12.6263,29.1141,Nb,O6,Octahedron,348,Nb25O62,Al0.5Nb24.5O62,,,,,,,,,,,,,,,,,,,,,,Wadsley-Roth,0,0
52,2.13938,0.172987,0.937157,0.0598105,1.2174,0.045977,0.0114943,0,348,90.1048,5.16497,0.021399,12.6263,29.1141,Nb,O6,Octahedron,348,Nb25O62,Al0.5Nb24.5O62,,,,,,,,,,,,,,,,,,,,,,Wadsley-Roth,0,0
53,2.13938,0.172987,0.937157,0.0598105,1.2174,0.0114943,0.002873563,0,348,90.1048,5.16497,0.021399,12.6263,29.1141,Nb,O6,Octahedron,348,Nb25O62,Al0.5Nb24.5O62,,,,,,,,,,,,,,,,,,,,,,Wadsley-Roth,0,0
54,2.13938,0.172987,0.937157,0.0598105,1.2174,0.0114943,0.002873563,0,348,90.1048,5.16497,0.021399,12.6263,29.1141,Nb,O6,Octahedron,348,Nb25O62,Al0.5Nb24.5O62,,,,,,,,,,,,,,,,,,,,,,Wadsley-Roth,0,0
55,2.13938,0.172987,0.937157,0.0598105,1.2174,0.0114943,0.002873563,0,348,90.1048,5.16497,0.021399,12.6263,29.1141,Nb,O6,Octahedron,348,Nb25O62,Al0.5Nb24.5O62,,,,,,,,,,,,,,,,,,,,,,Wadsley-Roth,0,0
56,2.16687,0.64436,0.650421,0.277835,5.04,0.0172414,0.005747126,0,348,103.734,32.1879,0.07559109,7.19348,,Nb,O6,Trigonal prism,348,Nb25O62,Al0.5Nb24.5O62,,,,,,,,,,,,,,,,,,,,,,Wadsley-Roth,0,0
57,2.16687,0.64436,0.650421,0.277835,5.04,0.0517241,0.0172414,0,348,103.734,32.1879,0.07559109,7.19348,,Nb,O6,Trigonal prism,348,Nb25O62,Al0.5Nb24.5O62,,,,,,,,,,,,,,,,,,,,,,Wadsley-Roth,0,0
58,2.38831,0.847466,-0.845686,0.303549,4.6312,0.0143678,0.00862069,0,348,102.515,27.4361,-0.409994,10.935,,Nb,O6,Trigonal prism,348,Nb25O62,Al0.5Nb24.5O62,,,,,,,,,,,,,,,,,,,,,,Wadsley-Roth,0,0
59,2.38831,0.847466,-0.845686,0.303549,4.6312,0.0143678,0.00862069,0,348,102.515,27.4361,-0.409994,10.935,,Nb,O6,Trigonal prism,348,Nb25O62,Al0.5Nb24.5O62,,,,,,,,,,,,,,,,,,,,,,Wadsley-Roth,0,0
60,2.38831,0.847466,-0.845686,0.303549,4.6312,0.0431034,0.0258621,0,348,102.515,27.4361,-0.409994,10.935,,Nb,O6,Trigonal prism,348,Nb25O62,Al0.5Nb24.5O62,,,,,,,,,,,,,,,,,,,,,,Wadsley-Roth,0,0
61,2.38831,0.847466,-0.845686,0.303549,4.6312,0.0287356,0.0172414,0,348,102.515,27.4361,-0.409994,10.935,,Nb,O6,Trigonal prism,348,Nb25O62,Al0.5Nb24.5O62,,,,,,,,,,,,,,,,,,,,,,Wadsley-Roth,0,0
62,2.38831,0.847466,-0.845686,0.303549,4.6312,0.0143678,0.00862069,0,348,102.515,27.4361,-0.409994,10.935,,Nb,O6,Trigonal prism,348,Nb25O62,Al0.5Nb24.5O62,,,,,,,,,,,,,,,,,,,,,,Wadsley-Roth,0,0
63,1.89851,0.01408436,0.0163129,0.007273188,1.2,0.0833333,0.0208333,0,96,89.9968,4.41535,0.0735584,9.01637,21.2677,Al,O6,Octahedron,96,AlWO4,AlWO4,,,,,,,,,,,,,,,,,,,,,,,0,0
64,1.89851,0.01408436,0.0163129,0.007273188,1.2,0.25,0.0625,0,96,89.9968,4.41535,0.0735584,9.01637,21.2677,Al,O6,Octahedron,96,AlWO4,AlWO4,,,,,,,,,,,,,,,,,,,,,,,0,0
65,1.89851,0.01408436,0.0163129,0.007273188,1.2,0.333333,0.0833333,0,96,89.9968,4.41535,0.0735584,9.01637,21.2677,Al,O6,Octahedron,96,AlWO4,AlWO4,,,,,,,,,,,,,,,,,,,,,,,0,0
66,1.89851,0.01408436,0.0163129,0.007273188,1.2,0.5,0.125,0,96,89.9968,4.41535,0.0735584,9.01637,21.2677,Al,O6,Octahedron,96,AlWO4,AlWO4,,,,,,,,,,,,,,,,,,,,,,,0,0
67,1.89851,0.01408436,0.0163129,0.007273188,1.2,0.166667,0.0416667,0,96,89.9968,4.41535,0.0735584,9.01637,21.2677,Al,O6,Octahedron,96,AlWO4,AlWO4,,,,,,,,,,,,,,,,,,,,,,,0,0
68,1.9575,0.0485726,-0.202027,0.0212937,1.19733,0.0833333,0.0208333,0,96,90.011,2.1662,-1.86348,9.91628,5.11912,W,O6,Octahedron,96,AlWO4,AlWO4,,,,,,,,,,,,,,,,,,,,,,,0,0
69,1.9575,0.0485726,-0.202027,0.0212937,1.19733,0.333333,0.0833333,0,96,90.011,2.1662,-1.86348,9.91628,5.11912,W,O6,Octahedron,96,AlWO4,AlWO4,,,,,,,,,,,,,,,,,,,,,,,0,0
70,1.9575,0.0485726,-0.202027,0.0212937,1.19733,0.75,0.1875,0,96,90.011,2.1662,-1.86348,9.91628,5.11912,W,O6,Octahedron,96,AlWO4,AlWO4,,,,,,,,,,,,,,,,,,,,,,,0,0
71,1.9575,0.0485726,-0.202027,0.0212937,1.19733,0.166667,0.0416667,0,96,90.011,2.1662,-1.86348,9.91628,5.11912,W,O6,Octahedron,96,AlWO4,AlWO4,,,,,,,,,,,,,,,,,,,,,,,0,0
72,2.00763,0.139947,-0.168961,0.0626014,1.21758,0.0625,0.008928571,0,112,90.0085,2.47466,-0.0747759,10.4319,6.68075,Nb,O6,Octahedron,112,Nb2O5,B-Nb2O5,,,,,,,,,,,,,,,,,,,,,,,0,0
73,2.00763,0.139947,-0.168961,0.0626014,1.21758,0.25,0.0357143,0,112,90.0085,2.47466,-0.0747759,10.4319,6.68075,Nb,O6,Octahedron,112,Nb2O5,B-Nb2O5,,,,,,,,,,,,,,,,,,,,,,,0,0
74,2.00763,0.139947,-0.168961,0.0626014,1.21758,1,0.142857,0,112,90.0085,2.47466,-0.0747759,10.4319,6.68075,Nb,O6,Octahedron,112,Nb2O5,B-Nb2O5,,,,,,,,,,,,,,,,,,,,,,,0,0
75,2.00763,0.139947,-0.168961,0.0626014,1.21758,0.5625,0.0803571,0,112,90.0085,2.47466,-0.0747759,10.4319,6.68075,Nb,O6,Octahedron,112,Nb2O5,B-Nb2O5,,,,,,,,,,,,,,,,,,,,,,,0,0
76,2.00763,0.139947,-0.168961,0.0626014,1.21758,0.125,0.0178571,0,112,90.0085,2.47466,-0.0747759,10.4319,6.68075,Nb,O6,Octahedron,112,Nb2O5,B-Nb2O5,,,,,,,,,,,,,,,,,,,,,,,0,0
77,2.36666,0.0452019,0.445245,0.0172211,1.26904,0.111111,0.0277778,0,144,90.024,6.866,0.104876,16.0604,51.4282,Ca,O6,Octahedron,144,CaNb2O6,CaNb2O6,Columbite,321.89,"Ca, Nb",3,22.4809,42.697,33.6381,0.787832,,,0.27,0.09,0.02,,,,0.5,3.5,,10.1021/jp206505y,"The specific capacity is not reported, only x in LixCaNb2O6. Block size is also not mentioned. The paper only states that ""(1 x 1) zigzag channels exist.""",Wadsley-Roth Adjacent,0,0
78,2.36666,0.0452019,0.445245,0.0172211,1.26904,0.222222,0.0555556,0,144,90.024,6.866,0.104876,16.0604,51.4282,Ca,O6,Octahedron,144,CaNb2O6,CaNb2O6,Columbite,321.89,"Ca, Nb",3,22.4809,42.697,33.6381,0.787832,,,0.27,0.09,0.02,,,,0.5,3.5,,10.1021/jp206505y,"The specific capacity is not reported, only x in LixCaNb2O6. Block size is also not mentioned. The paper only states that ""(1 x 1) zigzag channels exist.""",Wadsley-Roth Adjacent,0,0
79,2.36666,0.0452019,0.445245,0.0172211,1.26904,0.277778,0.0694444,0,144,90.024,6.866,0.104876,16.0604,51.4282,Ca,O6,Octahedron,144,CaNb2O6,CaNb2O6,Columbite,321.89,"Ca, Nb",3,22.4809,42.697,33.6381,0.787832,,,0.27,0.09,0.02,,,,0.5,3.5,,10.1021/jp206505y,"The specific capacity is not reported, only x in LixCaNb2O6. Block size is also not mentioned. The paper only states that ""(1 x 1) zigzag channels exist.""",Wadsley-Roth Adjacent,0,0
80,2.36666,0.0452019,0.445245,0.0172211,1.26904,0.277778,0.0694444,0,144,90.024,6.866,0.104876,16.0604,51.4282,Ca,O6,Octahedron,144,CaNb2O6,CaNb2O6,Columbite,321.89,"Ca, Nb",3,22.4809,42.697,33.6381,0.787832,,,0.27,0.09,0.02,,,,0.5,3.5,,10.1021/jp206505y,"The specific capacity is not reported, only x in LixCaNb2O6. Block size is also not mentioned. The paper only states that ""(1 x 1) zigzag channels exist.""",Wadsley-Roth Adjacent,0,0
81,2.01996,0.175732,0.522261,0.0696632,1.22844,0.166667,0.0416667,0,144,90.1755,5.47958,-0.831459,10.4848,32.7891,Nb,O6,Octahedron,144,CaNb2O6,CaNb2O6,Columbite,321.89,"Ca, Nb",3,22.4809,42.697,33.6381,0.787832,,,0.27,0.09,0.02,,,,0.5,3.5,,10.1021/jp206505y,"The specific capacity is not reported, only x in LixCaNb2O6. Block size is also not mentioned. The paper only states that ""(1 x 1) zigzag channels exist.""",Wadsley-Roth Adjacent,0,0
82,2.01996,0.175732,0.522261,0.0696632,1.22844,0.0555556,0.0138889,0,144,90.1755,5.47958,-0.831459,10.4848,32.7891,Nb,O6,Octahedron,144,CaNb2O6,CaNb2O6,Columbite,321.89,"Ca, Nb",3,22.4809,42.697,33.6381,0.787832,,,0.27,0.09,0.02,,,,0.5,3.5,,10.1021/jp206505y,"The specific capacity is not reported, only x in LixCaNb2O6. Block size is also not mentioned. The paper only states that ""(1 x 1) zigzag channels exist.""",Wadsley-Roth Adjacent,0,0
83,2.01996,0.175732,0.522261,0.0696632,1.22844,0.888889,0.222222,0,144,90.1755,5.47958,-0.831459,10.4848,32.7891,Nb,O6,Octahedron,144,CaNb2O6,CaNb2O6,Columbite,321.89,"Ca, Nb",3,22.4809,42.697,33.6381,0.787832,,,0.27,0.09,0.02,,,,0.5,3.5,,10.1021/jp206505y,"The specific capacity is not reported, only x in LixCaNb2O6. Block size is also not mentioned. The paper only states that ""(1 x 1) zigzag channels exist.""",Wadsley-Roth Adjacent,0,0
84,2.01996,0.175732,0.522261,0.0696632,1.22844,0.388889,0.0972222,0,144,90.1755,5.47958,-0.831459,10.4848,32.7891,Nb,O6,Octahedron,144,CaNb2O6,CaNb2O6,Columbite,321.89,"Ca, Nb",3,22.4809,42.697,33.6381,0.787832,,,0.27,0.09,0.02,,,,0.5,3.5,,10.1021/jp206505y,"The specific capacity is not reported, only x in LixCaNb2O6. Block size is also not mentioned. The paper only states that ""(1 x 1) zigzag channels exist.""",Wadsley-Roth Adjacent,0,0
85,2.01996,0.175732,0.522261,0.0696632,1.22844,0.222222,0.0555556,0,144,90.1755,5.47958,-0.831459,10.4848,32.7891,Nb,O6,Octahedron,144,CaNb2O6,CaNb2O6,Columbite,321.89,"Ca, Nb",3,22.4809,42.697,33.6381,0.787832,,,0.27,0.09,0.02,,,,0.5,3.5,,10.1021/jp206505y,"The specific capacity is not reported, only x in LixCaNb2O6. Block size is also not mentioned. The paper only states that ""(1 x 1) zigzag channels exist.""",Wadsley-Roth Adjacent,0,0
86,2.01996,0.175732,0.522261,0.0696632,1.22844,0.0555556,0.0138889,0,144,90.1755,5.47958,-0.831459,10.4848,32.7891,Nb,O6,Octahedron,144,CaNb2O6,CaNb2O6,Columbite,321.89,"Ca, Nb",3,22.4809,42.697,33.6381,0.787832,,,0.27,0.09,0.02,,,,0.5,3.5,,10.1021/jp206505y,"The specific capacity is not reported, only x in LixCaNb2O6. Block size is also not mentioned. The paper only states that ""(1 x 1) zigzag channels exist.""",Wadsley-Roth Adjacent,0,0
87,2.09733,0.0319292,0.166525,0.0129592,1.20868,0.166667,0.0416667,0,144,89.9949,3.66568,1.02293,12.0252,14.6588,Co,O6,Octahedron,144,Nb2CoO6,CoNb2O6,,,,,,,,,,,,,,,,,,,,,,,0,0
88,2.09733,0.0319292,0.166525,0.0129592,1.20868,0.222222,0.0555556,0,144,89.9949,3.66568,1.02293,12.0252,14.6588,Co,O6,Octahedron,144,Nb2CoO6,CoNb2O6,,,,,,,,,,,,,,,,,,,,,,,0,0
89,2.09733,0.0319292,0.166525,0.0129592,1.20868,0.388889,0.0972222,0,144,89.9949,3.66568,1.02293,12.0252,14.6588,Co,O6,Octahedron,144,Nb2CoO6,CoNb2O6,,,,,,,,,,,,,,,,,,,,,,,0,0
90,2.09733,0.0319292,0.166525,0.0129592,1.20868,0.111111,0.0277778,0,144,89.9949,3.66568,1.02293,12.0252,14.6588,Co,O6,Octahedron,144,Nb2CoO6,CoNb2O6,,,,,,,,,,,,,,,,,,,,,,,0,0
91,2.02545,0.178781,1.02758,0.0744165,1.2028,0.444444,0.111111,0,144,89.9826,2.97805,-0.739599,10.9103,9.67537,Nb,O6,Octahedron,144,Nb2CoO6,CoNb2O6,,,,,,,,,,,,,,,,,,,,,,,0,0
92,2.02545,0.178781,1.02758,0.0744165,1.2028,1.22222,0.305556,0,144,89.9826,2.97805,-0.739599,10.9103,9.67537,Nb,O6,Octahedron,144,Nb2CoO6,CoNb2O6,,,,,,,,,,,,,,,,,,,,,,,0,0
93,2.02545,0.178781,1.02758,0.0744165,1.2028,0.111111,0.0277778,0,144,89.9826,2.97805,-0.739599,10.9103,9.67537,Nb,O6,Octahedron,144,Nb2CoO6,CoNb2O6,,,,,,,,,,,,,,,,,,,,,,,0,0
94,2.09866,0.152844,0.615142,0.0673184,1.20883,0.166667,0.0416667,0,144,90,3.10374,0.272542,12.0459,10.5089,Cu,O6,Octahedron,144,Nb2CuO6,CuNb2O6,Columbite,345.36,"Cu, Nb",3,256,617.114,254.7,0.412728,234.11,0.379363,4.96494,1.65498,0.1,,,,0,3,Asymmetric,10.1039/D0QI00475H,"The reason this is highlighted red is because the 1st disharge value is quite high compared to the other materials, but this is because the cutoff voltage is different (it is at 0-3V). ",Wadsley-Roth Adjacent,0,0
95,2.09866,0.152844,0.615142,0.0673184,1.20883,0.166667,0.0416667,0,144,90,3.10374,0.272542,12.0459,10.5089,Cu,O6,Octahedron,144,Nb2CuO6,CuNb2O6,Columbite,345.36,"Cu, Nb",3,256,617.114,254.7,0.412728,234.11,0.379363,4.96494,1.65498,0.1,,,,0,3,Asymmetric,10.1039/D0QI00475H,"The reason this is highlighted red is because the 1st disharge value is quite high compared to the other materials, but this is because the cutoff voltage is different (it is at 0-3V). ",Wadsley-Roth Adjacent,0,0
96,2.09866,0.152844,0.615142,0.0673184,1.20883,0.555556,0.138889,0,144,90,3.10374,0.272542,12.0459,10.5089,Cu,O6,Octahedron,144,Nb2CuO6,CuNb2O6,Columbite,345.36,"Cu, Nb",3,256,617.114,254.7,0.412728,234.11,0.379363,4.96494,1.65498,0.1,,,,0,3,Asymmetric,10.1039/D0QI00475H,"The reason this is highlighted red is because the 1st disharge value is quite high compared to the other materials, but this is because the cutoff voltage is different (it is at 0-3V). ",Wadsley-Roth Adjacent,0,0
97,2.01139,0.131745,0.550365,0.0547811,1.22039,0.166667,0.0416667,0,144,90.0202,3.23295,-1.12448,10.4544,11.4026,Nb,O6,Octahedron,144,Nb2CuO6,CuNb2O6,Columbite,345.36,"Cu, Nb",3,256,617.114,254.7,0.412728,234.11,0.379363,4.96494,1.65498,0.1,,,,0,3,Asymmetric,10.1039/D0QI00475H,"The reason this is highlighted red is because the 1st disharge value is quite high compared to the other materials, but this is because the cutoff voltage is different (it is at 0-3V). ",Wadsley-Roth Adjacent,0,0
98,2.01139,0.131745,0.550365,0.0547811,1.22039,0.111111,0.0277778,0,144,90.0202,3.23295,-1.12448,10.4544,11.4026,Nb,O6,Octahedron,144,Nb2CuO6,CuNb2O6,Columbite,345.36,"Cu, Nb",3,256,617.114,254.7,0.412728,234.11,0.379363,4.96494,1.65498,0.1,,,,0,3,Asymmetric,10.1039/D0QI00475H,"The reason this is highlighted red is because the 1st disharge value is quite high compared to the other materials, but this is because the cutoff voltage is different (it is at 0-3V). ",Wadsley-Roth Adjacent,0,0
99,2.01139,0.131745,0.550365,0.0547811,1.22039,0.333333,0.0833333,0,144,90.0202,3.23295,-1.12448,10.4544,11.4026,Nb,O6,Octahedron,144,Nb2CuO6,CuNb2O6,Columbite,345.36,"Cu, Nb",3,256,617.114,254.7,0.412728,234.11,0.379363,4.96494,1.65498,0.1,,,,0,3,Asymmetric,10.1039/D0QI00475H,"The reason this is highlighted red is because the 1st disharge value is quite high compared to the other materials, but this is because the cutoff voltage is different (it is at 0-3V). ",Wadsley-Roth Adjacent,0,0
100,2.01139,0.131745,0.550365,0.0547811,1.22039,0.222222,0.0555556,0,144,90.0202,3.23295,-1.12448,10.4544,11.4026,Nb,O6,Octahedron,144,Nb2CuO6,CuNb2O6,Columbite,345.36,"Cu, Nb",3,256,617.114,254.7,0.412728,234.11,0.379363,4.96494,1.65498,0.1,,,,0,3,Asymmetric,10.1039/D0QI00475H,"The reason this is highlighted red is because the 1st disharge value is quite high compared to the other materials, but this is because the cutoff voltage is different (it is at 0-3V). ",Wadsley-Roth Adjacent,0,0
101,2.01139,0.131745,0.550365,0.0547811,1.22039,0.0555556,0.0138889,0,144,90.0202,3.23295,-1.12448,10.4544,11.4026,Nb,O6,Octahedron,144,Nb2CuO6,CuNb2O6,Columbite,345.36,"Cu, Nb",3,256,617.114,254.7,0.412728,234.11,0.379363,4.96494,1.65498,0.1,,,,0,3,Asymmetric,10.1039/D0QI00475H,"The reason this is highlighted red is because the 1st disharge value is quite high compared to the other materials, but this is because the cutoff voltage is different (it is at 0-3V). ",Wadsley-Roth Adjacent,0,0
102,2.01811,0.143955,-0.0100655,0.0641684,1.22454,0.277778,0.0694444,0,144,90.0005,3.14969,-0.979705,10.506,10.8224,Nb,O6,Octahedron,144,Nb2CuO6,CuNb2O6,Columbite,345.36,"Cu, Nb",3,256,617.114,254.7,0.412728,234.11,0.379363,4.96494,1.65498,0.1,,,,0,3,Asymmetric,10.1039/D0QI00475H,"The reason this is highlighted red is because the 1st disharge value is quite high compared to the other materials, but this is because the cutoff voltage is different (it is at 0-3V). ",Wadsley-Roth Adjacent,0,0
103,2.01811,0.143955,-0.0100655,0.0641684,1.22454,0.333333,0.0833333,0,144,90.0005,3.14969,-0.979705,10.506,10.8224,Nb,O6,Octahedron,144,Nb2CuO6,CuNb2O6,Columbite,345.36,"Cu, Nb",3,256,617.114,254.7,0.412728,234.11,0.379363,4.96494,1.65498,0.1,,,,0,3,Asymmetric,10.1039/D0QI00475H,"The reason this is highlighted red is because the 1st disharge value is quite high compared to the other materials, but this is because the cutoff voltage is different (it is at 0-3V). ",Wadsley-Roth Adjacent,0,0
104,2.01811,0.143955,-0.0100655,0.0641684,1.22454,0.166667,0.0416667,0,144,90.0005,3.14969,-0.979705,10.506,10.8224,Nb,O6,Octahedron,144,Nb2CuO6,CuNb2O6,Columbite,345.36,"Cu, Nb",3,256,617.114,254.7,0.412728,234.11,0.379363,4.96494,1.65498,0.1,,,,0,3,Asymmetric,10.1039/D0QI00475H,"The reason this is highlighted red is because the 1st disharge value is quite high compared to the other materials, but this is because the cutoff voltage is different (it is at 0-3V). ",Wadsley-Roth Adjacent,0,0
105,2.01811,0.143955,-0.0100655,0.0641684,1.22454,0.111111,0.0277778,0,144,90.0005,3.14969,-0.979705,10.506,10.8224,Nb,O6,Octahedron,144,Nb2CuO6,CuNb2O6,Columbite,345.36,"Cu, Nb",3,256,617.114,254.7,0.412728,234.11,0.379363,4.96494,1.65498,0.1,,,,0,3,Asymmetric,10.1039/D0QI00475H,"The reason this is highlighted red is because the 1st disharge value is quite high compared to the other materials, but this is because the cutoff voltage is different (it is at 0-3V). ",Wadsley-Roth Adjacent,0,0
106,1.96957,0.0687974,1.05333,0.0294192,1.19294,0.0121951,0.00304878,0,328,90.0224,1.8737,-0.244054,10.1565,3.83047,Nb,O6,Octahedron,328,Nb12O29,FeNb11O29,WR,1541.8,"Fe, Nb",12,288.8,294.46,298.56,1.01392,288.98,0.98139,16.6138,0.722293,0.5,3,4,inf,1,3,Symmetric,10.1063/5.0054,No specific capacity reported aside from Figure 3b. ,Wadsley-Roth,12,7
107,1.96957,0.0687974,1.05333,0.0294192,1.19294,0.0121951,0.00304878,0,328,90.0224,1.8737,-0.244054,10.1565,3.83047,Nb,O6,Octahedron,328,Nb12O29,FeNb11O29,WR,1541.8,"Fe, Nb",12,288.8,294.46,298.56,1.01392,288.98,0.98139,16.6138,0.722293,0.5,3,4,inf,1,3,Symmetric,10.1063/5.0054,No specific capacity reported aside from Figure 3b. ,Wadsley-Roth,12,7
108,1.96957,0.0687974,1.05333,0.0294192,1.19294,0.0365854,0.009146341,0,328,90.0224,1.8737,-0.244054,10.1565,3.83047,Nb,O6,Octahedron,328,Nb12O29,FeNb11O29,WR,1541.8,"Fe, Nb",12,288.8,294.46,298.56,1.01392,288.98,0.98139,16.6138,0.722293,0.5,3,4,inf,1,3,Symmetric,10.1063/5.0054,No specific capacity reported aside from Figure 3b. ,Wadsley-Roth,12,7
109,1.96957,0.0687974,1.05333,0.0294192,1.19294,0.0853659,0.0213415,0,328,90.0224,1.8737,-0.244054,10.1565,3.83047,Nb,O6,Octahedron,328,Nb12O29,FeNb11O29,WR,1541.8,"Fe, Nb",12,288.8,294.46,298.56,1.01392,288.98,0.98139,16.6138,0.722293,0.5,3,4,inf,1,3,Symmetric,10.1063/5.0054,No specific capacity reported aside from Figure 3b. ,Wadsley-Roth,12,7
110,1.96957,0.0687974,1.05333,0.0294192,1.19294,0.0243902,0.006097561,0,328,90.0224,1.8737,-0.244054,10.1565,3.83047,Nb,O6,Octahedron,328,Nb12O29,FeNb11O29,WR,1541.8,"Fe, Nb",12,288.8,294.46,298.56,1.01392,288.98,0.98139,16.6138,0.722293,0.5,3,4,inf,1,3,Symmetric,10.1063/5.0054,No specific capacity reported aside from Figure 3b. ,Wadsley-Roth,12,7
111,1.96957,0.0687974,1.05333,0.0294192,1.19294,0.0121951,0.00304878,0,328,90.0224,1.8737,-0.244054,10.1565,3.83047,Nb,O6,Octahedron,328,Nb12O29,FeNb11O29,WR,1541.8,"Fe, Nb",12,288.8,294.46,298.56,1.01392,288.98,0.98139,16.6138,0.722293,0.5,3,4,inf,1,3,Symmetric,10.1063/5.0054,No specific capacity reported aside from Figure 3b. ,Wadsley-Roth,12,7
112,1.96957,0.0687974,1.05333,0.0294192,1.19294,0.0121951,0.00304878,0,328,90.0224,1.8737,-0.244054,10.1565,3.83047,Nb,O6,Octahedron,328,Nb12O29,FeNb11O29,WR,1541.8,"Fe, Nb",12,288.8,294.46,298.56,1.01392,288.98,0.98139,16.6138,0.722293,0.5,3,4,inf,1,3,Symmetric,10.1063/5.0054,No specific capacity reported aside from Figure 3b. ,Wadsley-Roth,12,7
113,2.00087,0.117511,0.890462,0.0390957,1.2192,0.009146341,0.009146341,0,328,90.2438,5.43734,-0.132124,10.3063,32.3172,Nb,O6,Octahedron,328,Nb12O29,FeNb11O29,WR,1541.8,"Fe, Nb",12,288.8,294.46,298.56,1.01392,288.98,0.98139,16.6138,0.722293,0.5,3,4,inf,1,3,Symmetric,10.1063/5.0054,No specific capacity reported aside from Figure 3b. ,Wadsley-Roth,12,7
114,2.00087,0.117511,0.890462,0.0390957,1.2192,0.0182927,0.0182927,0,328,90.2438,5.43734,-0.132124,10.3063,32.3172,Nb,O6,Octahedron,328,Nb12O29,FeNb11O29,WR,1541.8,"Fe, Nb",12,288.8,294.46,298.56,1.01392,288.98,0.98139,16.6138,0.722293,0.5,3,4,inf,1,3,Symmetric,10.1063/5.0054,No specific capacity reported aside from Figure 3b. ,Wadsley-Roth,12,7
115,2.00087,0.117511,0.890462,0.0390957,1.2192,0.027439,0.027439,0,328,90.2438,5.43734,-0.132124,10.3063,32.3172,Nb,O6,Octahedron,328,Nb12O29,FeNb11O29,WR,1541.8,"Fe, Nb",12,288.8,294.46,298.56,1.01392,288.98,0.98139,16.6138,0.722293,0.5,3,4,inf,1,3,Symmetric,10.1063/5.0054,No specific capacity reported aside from Figure 3b. ,Wadsley-Roth,12,7
116,2.00087,0.117511,0.890462,0.0390957,1.2192,0.027439,0.027439,0,328,90.2438,5.43734,-0.132124,10.3063,32.3172,Nb,O6,Octahedron,328,Nb12O29,FeNb11O29,WR,1541.8,"Fe, Nb",12,288.8,294.46,298.56,1.01392,288.98,0.98139,16.6138,0.722293,0.5,3,4,inf,1,3,Symmetric,10.1063/5.0054,No specific capacity reported aside from Figure 3b. ,Wadsley-Roth,12,7
117,2.00087,0.117511,0.890462,0.0390957,1.2192,0.054878,0.054878,0,328,90.2438,5.43734,-0.132124,10.3063,32.3172,Nb,O6,Octahedron,328,Nb12O29,FeNb11O29,WR,1541.8,"Fe, Nb",12,288.8,294.46,298.56,1.01392,288.98,0.98139,16.6138,0.722293,0.5,3,4,inf,1,3,Symmetric,10.1063/5.0054,No specific capacity reported aside from Figure 3b. ,Wadsley-Roth,12,7
118,2.00087,0.117511,0.890462,0.0390957,1.2192,0.009146341,0.009146341,0,328,90.2438,5.43734,-0.132124,10.3063,32.3172,Nb,O6,Octahedron,328,Nb12O29,FeNb11O29,WR,1541.8,"Fe, Nb",12,288.8,294.46,298.56,1.01392,288.98,0.98139,16.6138,0.722293,0.5,3,4,inf,1,3,Symmetric,10.1063/5.0054,No specific capacity reported aside from Figure 3b. ,Wadsley-Roth,12,7
119,2.00176,0.161048,0.0316982,0.0671038,1.22359,0.0823171,0.0823171,0,328,90.2773,5.73148,-0.0575973,10.2646,35.9201,Nb,O6,Octahedron,328,Nb12O29,FeNb11O29,WR,1541.8,"Fe, Nb",12,288.8,294.46,298.56,1.01392,288.98,0.98139,16.6138,0.722293,0.5,3,4,inf,1,3,Symmetric,10.1063/5.0054,No specific capacity reported aside from Figure 3b. ,Wadsley-Roth,12,7
120,2.00176,0.161048,0.0316982,0.0671038,1.22359,0.0365854,0.0365854,0,328,90.2773,5.73148,-0.0575973,10.2646,35.9201,Nb,O6,Octahedron,328,Nb12O29,FeNb11O29,WR,1541.8,"Fe, Nb",12,288.8,294.46,298.56,1.01392,288.98,0.98139,16.6138,0.722293,0.5,3,4,inf,1,3,Symmetric,10.1063/5.0054,No specific capacity reported aside from Figure 3b. ,Wadsley-Roth,12,7
121,2.00176,0.161048,0.0316982,0.0671038,1.22359,0.0182927,0.0182927,0,328,90.2773,5.73148,-0.0575973,10.2646,35.9201,Nb,O6,Octahedron,328,Nb12O29,FeNb11O29,WR,1541.8,"Fe, Nb",12,288.8,294.46,298.56,1.01392,288.98,0.98139,16.6138,0.722293,0.5,3,4,inf,1,3,Symmetric,10.1063/5.0054,No specific capacity reported aside from Figure 3b. ,Wadsley-Roth,12,7
122,2.00176,0.161048,0.0316982,0.0671038,1.22359,0.009146341,0.009146341,0,328,90.2773,5.73148,-0.0575973,10.2646,35.9201,Nb,O6,Octahedron,328,Nb12O29,FeNb11O29,WR,1541.8,"Fe, Nb",12,288.8,294.46,298.56,1.01392,288.98,0.98139,16.6138,0.722293,0.5,3,4,inf,1,3,Symmetric,10.1063/5.0054,No specific capacity reported aside from Figure 3b. ,Wadsley-Roth,12,7
123,2.02667,0.201926,0.614632,0.0728815,1.23467,0.009146341,0.0121951,0,328,90.0172,2.03385,-0.327479,10.5095,4.51293,Nb,O6,Octahedron,328,Nb12O29,FeNb11O29,WR,1541.8,"Fe, Nb",12,288.8,294.46,298.56,1.01392,288.98,0.98139,16.6138,0.722293,0.5,3,4,inf,1,3,Symmetric,10.1063/5.0054,No specific capacity reported aside from Figure 3b. ,Wadsley-Roth,12,7
124,2.02667,0.201926,0.614632,0.0728815,1.23467,0.109756,0.146341,0,328,90.0172,2.03385,-0.327479,10.5095,4.51293,Nb,O6,Octahedron,328,Nb12O29,FeNb11O29,WR,1541.8,"Fe, Nb",12,288.8,294.46,298.56,1.01392,288.98,0.98139,16.6138,0.722293,0.5,3,4,inf,1,3,Symmetric,10.1063/5.0054,No specific capacity reported aside from Figure 3b. ,Wadsley-Roth,12,7
125,2.02667,0.201926,0.614632,0.0728815,1.23467,0.027439,0.0365854,0,328,90.0172,2.03385,-0.327479,10.5095,4.51293,Nb,O6,Octahedron,328,Nb12O29,FeNb11O29,WR,1541.8,"Fe, Nb",12,288.8,294.46,298.56,1.01392,288.98,0.98139,16.6138,0.722293,0.5,3,4,inf,1,3,Symmetric,10.1063/5.0054,No specific capacity reported aside from Figure 3b. ,Wadsley-Roth,12,7
126,2.03085,0.209619,0.585107,0.085549,1.23326,0.0426829,0.106707,0,328,90.05,2.64857,0.106511,10.5929,7.65535,Nb,O6,Octahedron,328,Nb12O29,FeNb11O29,WR,1541.8,"Fe, Nb",12,288.8,294.46,298.56,1.01392,288.98,0.98139,16.6138,0.722293,0.5,3,4,inf,1,3,Symmetric,10.1063/5.0054,No specific capacity reported aside from Figure 3b. ,Wadsley-Roth,12,7
127,2.03085,0.209619,0.585107,0.085549,1.23326,0.0304878,0.0762195,0,328,90.05,2.64857,0.106511,10.5929,7.65535,Nb,O6,Octahedron,328,Nb12O29,FeNb11O29,WR,1541.8,"Fe, Nb",12,288.8,294.46,298.56,1.01392,288.98,0.98139,16.6138,0.722293,0.5,3,4,inf,1,3,Symmetric,10.1063/5.0054,No specific capacity reported aside from Figure 3b. ,Wadsley-Roth,12,7
128,2.03085,0.209619,0.585107,0.085549,1.23326,0.0243902,0.06097561,0,328,90.05,2.64857,0.106511,10.5929,7.65535,Nb,O6,Octahedron,328,Nb12O29,FeNb11O29,WR,1541.8,"Fe, Nb",12,288.8,294.46,298.56,1.01392,288.98,0.98139,16.6138,0.722293,0.5,3,4,inf,1,3,Symmetric,10.1063/5.0054,No specific capacity reported aside from Figure 3b. ,Wadsley-Roth,12,7
129,2.04764,0.170511,0.866256,0.07216061,1.23889,0.006097561,0.0152439,0,328,90.3425,6.46745,0.483674,10.7838,45.7585,Nb,O6,Octahedron,328,Nb12O29,FeNb11O29,WR,1541.8,"Fe, Nb",12,288.8,294.46,298.56,1.01392,288.98,0.98139,16.6138,0.722293,0.5,3,4,inf,1,3,Symmetric,10.1063/5.0054,No specific capacity reported aside from Figure 3b. ,Wadsley-Roth,12,7
130,2.04764,0.170511,0.866256,0.07216061,1.23889,0.0365854,0.0914634,0,328,90.3425,6.46745,0.483674,10.7838,45.7585,Nb,O6,Octahedron,328,Nb12O29,FeNb11O29,WR,1541.8,"Fe, Nb",12,288.8,294.46,298.56,1.01392,288.98,0.98139,16.6138,0.722293,0.5,3,4,inf,1,3,Symmetric,10.1063/5.0054,No specific capacity reported aside from Figure 3b. ,Wadsley-Roth,12,7
131,2.04764,0.170511,0.866256,0.07216061,1.23889,0.0487805,0.121951,0,328,90.3425,6.46745,0.483674,10.7838,45.7585,Nb,O6,Octahedron,328,Nb12O29,FeNb11O29,WR,1541.8,"Fe, Nb",12,288.8,294.46,298.56,1.01392,288.98,0.98139,16.6138,0.722293,0.5,3,4,inf,1,3,Symmetric,10.1063/5.0054,No specific capacity reported aside from Figure 3b. ,Wadsley-Roth,12,7
132,2.04764,0.170511,0.866256,0.07216061,1.23889,0.006097561,0.0152439,0,328,90.3425,6.46745,0.483674,10.7838,45.7585,Nb,O6,Octahedron,328,Nb12O29,FeNb11O29,WR,1541.8,"Fe, Nb",12,288.8,294.46,298.56,1.01392,288.98,0.98139,16.6138,0.722293,0.5,3,4,inf,1,3,Symmetric,10.1063/5.0054,No specific capacity reported aside from Figure 3b. ,Wadsley-Roth,12,7
133,2.1117,0.0155686,-0.653384,0.006891562,1.20653,0.111111,0.0277778,0,144,89.9677,2.29972,1.09389,12.3069,5.77065,Fe,O6,Octahedron,144,Nb2FeO6,FeNb2O6,,,,,,,,,,,,,,,,,,,,,,,0,0
134,2.1117,0.0155686,-0.653384,0.006891562,1.20653,0.166667,0.0416667,0,144,89.9677,2.29972,1.09389,12.3069,5.77065,Fe,O6,Octahedron,144,Nb2FeO6,FeNb2O6,,,,,,,,,,,,,,,,,,,,,,,0,0
135,2.1117,0.0155686,-0.653384,0.006891562,1.20653,0.166667,0.0416667,0,144,89.9677,2.29972,1.09389,12.3069,5.77065,Fe,O6,Octahedron,144,Nb2FeO6,FeNb2O6,,,,,,,,,,,,,,,,,,,,,,,0,0
136,2.1117,0.0155686,-0.653384,0.006891562,1.20653,0.166667,0.0416667,0,144,89.9677,2.29972,1.09389,12.3069,5.77065,Fe,O6,Octahedron,144,Nb2FeO6,FeNb2O6,,,,,,,,,,,,,,,,,,,,,,,0,0
137,2.1117,0.0155686,-0.653384,0.006891562,1.20653,0.277778,0.0694444,0,144,89.9677,2.29972,1.09389,12.3069,5.77065,Fe,O6,Octahedron,144,Nb2FeO6,FeNb2O6,,,,,,,,,,,,,,,,,,,,,,,0,0
138,2.01815,0.142038,-0.0311152,0.068613,1.22099,0.166667,0.0416667,0,144,90.0306,3.25055,-1.24965,10.5524,11.5277,Nb,O6,Octahedron,144,Nb2FeO6,FeNb2O6,,,,,,,,,,,,,,,,,,,,,,,0,0
139,2.01815,0.142038,-0.0311152,0.068613,1.22099,0.333333,0.0833333,0,144,90.0306,3.25055,-1.24965,10.5524,11.5277,Nb,O6,Octahedron,144,Nb2FeO6,FeNb2O6,,,,,,,,,,,,,,,,,,,,,,,0,0
140,2.01815,0.142038,-0.0311152,0.068613,1.22099,0.5,0.125,0,144,90.0306,3.25055,-1.24965,10.5524,11.5277,Nb,O6,Octahedron,144,Nb2FeO6,FeNb2O6,,,,,,,,,,,,,,,,,,,,,,,0,0
141,2.01815,0.142038,-0.0311152,0.068613,1.22099,0.611111,0.152778,0,144,90.0306,3.25055,-1.24965,10.5524,11.5277,Nb,O6,Octahedron,144,Nb2FeO6,FeNb2O6,,,,,,,,,,,,,,,,,,,,,,,0,0
142,2.01815,0.142038,-0.0311152,0.068613,1.22099,0.166667,0.0416667,0,144,90.0306,3.25055,-1.24965,10.5524,11.5277,Nb,O6,Octahedron,144,Nb2FeO6,FeNb2O6,,,,,,,,,,,,,,,,,,,,,,,0,0
[...]
1004,1.96875,0.156152,-0.365741,0.0582329,1.22715,0.0315789,0.0315789,0,380,90.1136,4.22171,-0.260471,9.72268,19.4572,Nb,O6,Octahedron,380,Nb25WO69,W8Nb18O69,WR,4246.99,"W, Nb",26,164.1,276.08,218.05,0.789807,237.02,0.858519,26.0035,1.00014,0.2,4,5,1,1.2,3,Asymmetric,10.1021/acs.chemmater.9b05403,,Wadsley-Roth,20,9
1005,1.96875,0.156152,-0.365741,0.0582329,1.22715,0.007894737,0.007894737,0,380,90.1136,4.22171,-0.260471,9.72268,19.4572,Nb,O6,Octahedron,380,Nb25WO69,W8Nb18O69,WR,4246.99,"W, Nb",26,164.1,276.08,218.05,0.789807,237.02,0.858519,26.0035,1.00014,0.2,4,5,1,1.2,3,Asymmetric,10.1021/acs.chemmater.9b05403,,Wadsley-Roth,20,9
1006,1.96875,0.156152,-0.365741,0.0582329,1.22715,0.007894737,0.007894737,0,380,90.1136,4.22171,-0.260471,9.72268,19.4572,Nb,O6,Octahedron,380,Nb25WO69,W8Nb18O69,WR,4246.99,"W, Nb",26,164.1,276.08,218.05,0.789807,237.02,0.858519,26.0035,1.00014,0.2,4,5,1,1.2,3,Asymmetric,10.1021/acs.chemmater.9b05403,,Wadsley-Roth,20,9
1007,1.96875,0.156152,-0.365741,0.0582329,1.22715,0.0157895,0.0157895,0,380,90.1136,4.22171,-0.260471,9.72268,19.4572,Nb,O6,Octahedron,380,Nb25WO69,W8Nb18O69,WR,4246.99,"W, Nb",26,164.1,276.08,218.05,0.789807,237.02,0.858519,26.0035,1.00014,0.2,4,5,1,1.2,3,Asymmetric,10.1021/acs.chemmater.9b05403,,Wadsley-Roth,20,9
1008,1.96875,0.156152,-0.365741,0.0582329,1.22715,0.0315789,0.0315789,0,380,90.1136,4.22171,-0.260471,9.72268,19.4572,Nb,O6,Octahedron,380,Nb25WO69,W8Nb18O69,WR,4246.99,"W, Nb",26,164.1,276.08,218.05,0.789807,237.02,0.858519,26.0035,1.00014,0.2,4,5,1,1.2,3,Asymmetric,10.1021/acs.chemmater.9b05403,,Wadsley-Roth,20,9
1009,1.96875,0.156152,-0.365741,0.0582329,1.22715,0.007894737,0.007894737,0,380,90.1136,4.22171,-0.260471,9.72268,19.4572,Nb,O6,Octahedron,380,Nb25WO69,W8Nb18O69,WR,4246.99,"W, Nb",26,164.1,276.08,218.05,0.789807,237.02,0.858519,26.0035,1.00014,0.2,4,5,1,1.2,3,Asymmetric,10.1021/acs.chemmater.9b05403,,Wadsley-Roth,20,9
1010,1.96875,0.156152,-0.365741,0.0582329,1.22715,0.0236842,0.0236842,0,380,90.1136,4.22171,-0.260471,9.72268,19.4572,Nb,O6,Octahedron,380,Nb25WO69,W8Nb18O69,WR,4246.99,"W, Nb",26,164.1,276.08,218.05,0.789807,237.02,0.858519,26.0035,1.00014,0.2,4,5,1,1.2,3,Asymmetric,10.1021/acs.chemmater.9b05403,,Wadsley-Roth,20,9
1011,1.97567,0.162499,-0.317301,0.0664975,1.22926,0.007894737,0.007894737,0,380,90.2009,5.08473,-0.141662,9.80018,28.2489,Nb,O6,Octahedron,380,Nb25WO69,W8Nb18O69,WR,4246.99,"W, Nb",26,164.1,276.08,218.05,0.789807,237.02,0.858519,26.0035,1.00014,0.2,4,5,1,1.2,3,Asymmetric,10.1021/acs.chemmater.9b05403,,Wadsley-Roth,20,9
1012,1.97567,0.162499,-0.317301,0.0664975,1.22926,0.007894737,0.007894737,0,380,90.2009,5.08473,-0.141662,9.80018,28.2489,Nb,O6,Octahedron,380,Nb25WO69,W8Nb18O69,WR,4246.99,"W, Nb",26,164.1,276.08,218.05,0.789807,237.02,0.858519,26.0035,1.00014,0.2,4,5,1,1.2,3,Asymmetric,10.1021/acs.chemmater.9b05403,,Wadsley-Roth,20,9
1013,1.97567,0.162499,-0.317301,0.0664975,1.22926,0.007894737,0.007894737,0,380,90.2009,5.08473,-0.141662,9.80018,28.2489,Nb,O6,Octahedron,380,Nb25WO69,W8Nb18O69,WR,4246.99,"W, Nb",26,164.1,276.08,218.05,0.789807,237.02,0.858519,26.0035,1.00014,0.2,4,5,1,1.2,3,Asymmetric,10.1021/acs.chemmater.9b05403,,Wadsley-Roth,20,9
1014,1.97567,0.162499,-0.317301,0.0664975,1.22926,0.007894737,0.007894737,0,380,90.2009,5.08473,-0.141662,9.80018,28.2489,Nb,O6,Octahedron,380,Nb25WO69,W8Nb18O69,WR,4246.99,"W, Nb",26,164.1,276.08,218.05,0.789807,237.02,0.858519,26.0035,1.00014,0.2,4,5,1,1.2,3,Asymmetric,10.1021/acs.chemmater.9b05403,,Wadsley-Roth,20,9
1015,1.97567,0.162499,-0.317301,0.0664975,1.22926,0.007894737,0.007894737,0,380,90.2009,5.08473,-0.141662,9.80018,28.2489,Nb,O6,Octahedron,380,Nb25WO69,W8Nb18O69,WR,4246.99,"W, Nb",26,164.1,276.08,218.05,0.789807,237.02,0.858519,26.0035,1.00014,0.2,4,5,1,1.2,3,Asymmetric,10.1021/acs.chemmater.9b05403,,Wadsley-Roth,20,9
1016,1.97567,0.162499,-0.317301,0.0664975,1.22926,0.0236842,0.0236842,0,380,90.2009,5.08473,-0.141662,9.80018,28.2489,Nb,O6,Octahedron,380,Nb25WO69,W8Nb18O69,WR,4246.99,"W, Nb",26,164.1,276.08,218.05,0.789807,237.02,0.858519,26.0035,1.00014,0.2,4,5,1,1.2,3,Asymmetric,10.1021/acs.chemmater.9b05403,,Wadsley-Roth,20,9
1017,1.97567,0.162499,-0.317301,0.0664975,1.22926,0.0315789,0.0315789,0,380,90.2009,5.08473,-0.141662,9.80018,28.2489,Nb,O6,Octahedron,380,Nb25WO69,W8Nb18O69,WR,4246.99,"W, Nb",26,164.1,276.08,218.05,0.789807,237.02,0.858519,26.0035,1.00014,0.2,4,5,1,1.2,3,Asymmetric,10.1021/acs.chemmater.9b05403,,Wadsley-Roth,20,9
1018,1.97567,0.162499,-0.317301,0.0664975,1.22926,0.007894737,0.007894737,0,380,90.2009,5.08473,-0.141662,9.80018,28.2489,Nb,O6,Octahedron,380,Nb25WO69,W8Nb18O69,WR,4246.99,"W, Nb",26,164.1,276.08,218.05,0.789807,237.02,0.858519,26.0035,1.00014,0.2,4,5,1,1.2,3,Asymmetric,10.1021/acs.chemmater.9b05403,,Wadsley-Roth,20,9
1019,1.97567,0.162499,-0.317301,0.0664975,1.22926,0.0236842,0.0236842,0,380,90.2009,5.08473,-0.141662,9.80018,28.2489,Nb,O6,Octahedron,380,Nb25WO69,W8Nb18O69,WR,4246.99,"W, Nb",26,164.1,276.08,218.05,0.789807,237.02,0.858519,26.0035,1.00014,0.2,4,5,1,1.2,3,Asymmetric,10.1021/acs.chemmater.9b05403,,Wadsley-Roth,20,9
1020,1.98422,0.13767,0.12302,0.0598002,1.19255,0.0421053,0.0105263,0,380,89.9919,1.95262,-0.0303236,10.39,4.1594,Nb,O6,Octahedron,380,Nb25WO69,W8Nb18O69,WR,4246.99,"W, Nb",26,164.1,276.08,218.05,0.789807,237.02,0.858519,26.0035,1.00014,0.2,4,5,1,1.2,3,Asymmetric,10.1021/acs.chemmater.9b05403,,Wadsley-Roth,20,9
1021,1.98422,0.13767,0.12302,0.0598002,1.19255,0.0105263,0.002631579,0,380,89.9919,1.95262,-0.0303236,10.39,4.1594,Nb,O6,Octahedron,380,Nb25WO69,W8Nb18O69,WR,4246.99,"W, Nb",26,164.1,276.08,218.05,0.789807,237.02,0.858519,26.0035,1.00014,0.2,4,5,1,1.2,3,Asymmetric,10.1021/acs.chemmater.9b05403,,Wadsley-Roth,20,9
1022,1.98422,0.13767,0.12302,0.0598002,1.19255,0.0210526,0.005263158,0,380,89.9919,1.95262,-0.0303236,10.39,4.1594,Nb,O6,Octahedron,380,Nb25WO69,W8Nb18O69,WR,4246.99,"W, Nb",26,164.1,276.08,218.05,0.789807,237.02,0.858519,26.0035,1.00014,0.2,4,5,1,1.2,3,Asymmetric,10.1021/acs.chemmater.9b05403,,Wadsley-Roth,20,9
1023,1.98422,0.13767,0.12302,0.0598002,1.19255,0.0315789,0.007894737,0,380,89.9919,1.95262,-0.0303236,10.39,4.1594,Nb,O6,Octahedron,380,Nb25WO69,W8Nb18O69,WR,4246.99,"W, Nb",26,164.1,276.08,218.05,0.789807,237.02,0.858519,26.0035,1.00014,0.2,4,5,1,1.2,3,Asymmetric,10.1021/acs.chemmater.9b05403,,Wadsley-Roth,20,9
1024,1.98422,0.13767,0.12302,0.0598002,1.19255,0.0210526,0.005263158,0,380,89.9919,1.95262,-0.0303236,10.39,4.1594,Nb,O6,Octahedron,380,Nb25WO69,W8Nb18O69,WR,4246.99,"W, Nb",26,164.1,276.08,218.05,0.789807,237.02,0.858519,26.0035,1.00014,0.2,4,5,1,1.2,3,Asymmetric,10.1021/acs.chemmater.9b05403,,Wadsley-Roth,20,9
1025,1.98422,0.13767,0.12302,0.0598002,1.19255,0.0210526,0.005263158,0,380,89.9919,1.95262,-0.0303236,10.39,4.1594,Nb,O6,Octahedron,380,Nb25WO69,W8Nb18O69,WR,4246.99,"W, Nb",26,164.1,276.08,218.05,0.789807,237.02,0.858519,26.0035,1.00014,0.2,4,5,1,1.2,3,Asymmetric,10.1021/acs.chemmater.9b05403,,Wadsley-Roth,20,9
1026,1.98422,0.13767,0.12302,0.0598002,1.19255,0.0210526,0.005263158,0,380,89.9919,1.95262,-0.0303236,10.39,4.1594,Nb,O6,Octahedron,380,Nb25WO69,W8Nb18O69,WR,4246.99,"W, Nb",26,164.1,276.08,218.05,0.789807,237.02,0.858519,26.0035,1.00014,0.2,4,5,1,1.2,3,Asymmetric,10.1021/acs.chemmater.9b05403,,Wadsley-Roth,20,9
1027,2.00464,0.0693985,-0.707107,0.03263899,1.192,0.0210526,0.005263158,0,380,90,5.37582e-14,,10.7215,3.47902e-27,Nb,O6,Octahedron,380,Nb25WO69,W8Nb18O69,WR,4246.99,"W, Nb",26,164.1,276.08,218.05,0.789807,237.02,0.858519,26.0035,1.00014,0.2,4,5,1,1.2,3,Asymmetric,10.1021/acs.chemmater.9b05403,,Wadsley-Roth,20,9
1028,2.00464,0.0693985,-0.707107,0.03263899,1.192,0.0105263,0.002631579,0,380,90,3.55271e-14,,10.7215,1.37692e-27,Nb,O6,Octahedron,380,Nb25WO69,W8Nb18O69,WR,4246.99,"W, Nb",26,164.1,276.08,218.05,0.789807,237.02,0.858519,26.0035,1.00014,0.2,4,5,1,1.2,3,Asymmetric,10.1021/acs.chemmater.9b05403,,Wadsley-Roth,20,9
1029,2.00464,0.0693985,-0.707107,0.03263899,1.192,0.0105263,0.002631579,0,380,90,7.06981e-14,,10.7215,5.45261e-27,Nb,O6,Octahedron,380,Nb25WO69,W8Nb18O69,WR,4246.99,"W, Nb",26,164.1,276.08,218.05,0.789807,237.02,0.858519,26.0035,1.00014,0.2,4,5,1,1.2,3,Asymmetric,10.1021/acs.chemmater.9b05403,,Wadsley-Roth,20,9
1030,2.02642,0.16058,-0.507589,0.0665495,1.22334,0.0157895,0.0157895,0,380,90.1022,4.34243,0.0188492,10.6519,20.5823,Nb,O6,Octahedron,380,Nb25WO69,W8Nb18O69,WR,4246.99,"W, Nb",26,164.1,276.08,218.05,0.789807,237.02,0.858519,26.0035,1.00014,0.2,4,5,1,1.2,3,Asymmetric,10.1021/acs.chemmater.9b05403,,Wadsley-Roth,20,9
1031,2.02642,0.16058,-0.507589,0.0665495,1.22334,0.0473684,0.0473684,0,380,90.1022,4.34243,0.0188492,10.6519,20.5823,Nb,O6,Octahedron,380,Nb25WO69,W8Nb18O69,WR,4246.99,"W, Nb",26,164.1,276.08,218.05,0.789807,237.02,0.858519,26.0035,1.00014,0.2,4,5,1,1.2,3,Asymmetric,10.1021/acs.chemmater.9b05403,,Wadsley-Roth,20,9
1032,2.02642,0.16058,-0.507589,0.0665495,1.22334,0.0236842,0.0236842,0,380,90.1022,4.34243,0.0188492,10.6519,20.5823,Nb,O6,Octahedron,380,Nb25WO69,W8Nb18O69,WR,4246.99,"W, Nb",26,164.1,276.08,218.05,0.789807,237.02,0.858519,26.0035,1.00014,0.2,4,5,1,1.2,3,Asymmetric,10.1021/acs.chemmater.9b05403,,Wadsley-Roth,20,9
1033,2.02642,0.16058,-0.507589,0.0665495,1.22334,0.0394737,0.0394737,0,380,90.1022,4.34243,0.0188492,10.6519,20.5823,Nb,O6,Octahedron,380,Nb25WO69,W8Nb18O69,WR,4246.99,"W, Nb",26,164.1,276.08,218.05,0.789807,237.02,0.858519,26.0035,1.00014,0.2,4,5,1,1.2,3,Asymmetric,10.1021/acs.chemmater.9b05403,,Wadsley-Roth,20,9
1034,1.771,1.62791e-15,,7.20926e-16,2.26014,0.0105263,0,0,380,109.517,3.78477,0.707107,2.83146,17.192,W,O4,Tetrahedron,380,Nb25WO69,W8Nb18O69,WR,4246.99,"W, Nb",26,164.1,276.08,218.05,0.789807,237.02,0.858519,26.0035,1.00014,0.2,4,5,1,1.2,3,Asymmetric,10.1021/acs.chemmater.9b05403,,Wadsley-Roth,20,9
1035,1.771,1.18018e-15,,5.32858e-16,2.26014,0.0105263,0,0,380,109.517,3.78477,0.707107,2.83146,17.192,W,O4,Tetrahedron,380,Nb25WO69,W8Nb18O69,WR,4246.99,"W, Nb",26,164.1,276.08,218.05,0.789807,237.02,0.858519,26.0035,1.00014,0.2,4,5,1,1.2,3,Asymmetric,10.1021/acs.chemmater.9b05403,,Wadsley-Roth,20,9
1036,1.771,1.46869e-15,,6.58237e-16,2.26014,0.0105263,0,0,380,109.517,3.78477,0.707107,2.83146,17.192,W,O4,Tetrahedron,380,Nb25WO69,W8Nb18O69,WR,4246.99,"W, Nb",26,164.1,276.08,218.05,0.789807,237.02,0.858519,26.0035,1.00014,0.2,4,5,1,1.2,3,Asymmetric,10.1021/acs.chemmater.9b05403,,Wadsley-Roth,20,9
1037,1.771,1.64298e-15,,7.83615e-16,2.26014,0.0105263,0,0,380,109.517,3.78477,0.707107,2.83146,17.192,W,O4,Tetrahedron,380,Nb25WO69,W8Nb18O69,WR,4246.99,"W, Nb",26,164.1,276.08,218.05,0.789807,237.02,0.858519,26.0035,1.00014,0.2,4,5,1,1.2,3,Asymmetric,10.1021/acs.chemmater.9b05403,,Wadsley-Roth,20,9
1038,1.93522,0.0222507,0.330064,0.0106355,1.19182,0.02173913,0.005434783,0,184,90.0018,1.7054,-0.0667264,9.64791,3.17281,Nb,O6,Octahedron,184,Nb12WO33,WNb12O33,WR,1826.7,"Nb, W",13,203,202.79,178.76,0.881503,177.9,0.877262,13.8359,1.0643,0.333333,3,4,inf,1,3,Symmetric,10.1021/acsaem.2c03573,,Wadsley-Roth,12,7
1039,1.93522,0.0222507,0.330064,0.0106355,1.19182,0.0869565,0.02173913,0,184,90.0018,1.7054,-0.0667264,9.64791,3.17281,Nb,O6,Octahedron,184,Nb12WO33,WNb12O33,WR,1826.7,"Nb, W",13,203,202.79,178.76,0.881503,177.9,0.877262,13.8359,1.0643,0.333333,3,4,inf,1,3,Symmetric,10.1021/acsaem.2c03573,,Wadsley-Roth,12,7
1040,1.93522,0.0222507,0.330064,0.0106355,1.19182,0.0434783,0.0108696,0,184,90.0018,1.7054,-0.0667264,9.64791,3.17281,Nb,O6,Octahedron,184,Nb12WO33,WNb12O33,WR,1826.7,"Nb, W",13,203,202.79,178.76,0.881503,177.9,0.877262,13.8359,1.0643,0.333333,3,4,inf,1,3,Symmetric,10.1021/acsaem.2c03573,,Wadsley-Roth,12,7
1041,1.93522,0.0222507,0.330064,0.0106355,1.19182,0.02173913,0.005434783,0,184,90.0018,1.7054,-0.0667264,9.64791,3.17281,Nb,O6,Octahedron,184,Nb12WO33,WNb12O33,WR,1826.7,"Nb, W",13,203,202.79,178.76,0.881503,177.9,0.877262,13.8359,1.0643,0.333333,3,4,inf,1,3,Symmetric,10.1021/acsaem.2c03573,,Wadsley-Roth,12,7
1042,1.96819,0.107071,-0.19921,0.0490451,1.26852,0.0326087,0.0326087,0,184,94.9595,18.0014,1.71858,9.24315,377.701,Nb,O6,Octahedron,184,Nb12WO33,WNb12O33,WR,1826.7,"Nb, W",13,203,202.79,178.76,0.881503,177.9,0.877262,13.8359,1.0643,0.333333,3,4,inf,1,3,Symmetric,10.1021/acsaem.2c03573,,Wadsley-Roth,12,7
1043,1.96819,0.107071,-0.19921,0.0490451,1.26852,0.0163043,0.0163043,0,184,94.9595,18.0014,1.71858,9.24315,377.701,Nb,O6,Octahedron,184,Nb12WO33,WNb12O33,WR,1826.7,"Nb, W",13,203,202.79,178.76,0.881503,177.9,0.877262,13.8359,1.0643,0.333333,3,4,inf,1,3,Symmetric,10.1021/acsaem.2c03573,,Wadsley-Roth,12,7
1044,1.96819,0.107071,-0.19921,0.0490451,1.26852,0.0326087,0.0326087,0,184,94.9595,18.0014,1.71858,9.24315,377.701,Nb,O6,Octahedron,184,Nb12WO33,WNb12O33,WR,1826.7,"Nb, W",13,203,202.79,178.76,0.881503,177.9,0.877262,13.8359,1.0643,0.333333,3,4,inf,1,3,Symmetric,10.1021/acsaem.2c03573,,Wadsley-Roth,12,7
1045,1.96819,0.107071,-0.19921,0.0490451,1.26852,0.048913,0.048913,0,184,94.9595,18.0014,1.71858,9.24315,377.701,Nb,O6,Octahedron,184,Nb12WO33,WNb12O33,WR,1826.7,"Nb, W",13,203,202.79,178.76,0.881503,177.9,0.877262,13.8359,1.0643,0.333333,3,4,inf,1,3,Symmetric,10.1021/acsaem.2c03573,,Wadsley-Roth,12,7
1046,1.98057,0.0889824,0.475937,0.0406776,1.27078,0.0163043,0.0163043,0,184,95.0558,18.0933,1.54633,9.39345,382.338,Nb,O6,Octahedron,184,Nb12WO33,WNb12O33,WR,1826.7,"Nb, W",13,203,202.79,178.76,0.881503,177.9,0.877262,13.8359,1.0643,0.333333,3,4,inf,1,3,Symmetric,10.1021/acsaem.2c03573,,Wadsley-Roth,12,7
1047,1.98057,0.0889824,0.475937,0.0406776,1.27078,0.0652174,0.0652174,0,184,95.0558,18.0933,1.54633,9.39345,382.338,Nb,O6,Octahedron,184,Nb12WO33,WNb12O33,WR,1826.7,"Nb, W",13,203,202.79,178.76,0.881503,177.9,0.877262,13.8359,1.0643,0.333333,3,4,inf,1,3,Symmetric,10.1021/acsaem.2c03573,,Wadsley-Roth,12,7
1048,1.98057,0.0889824,0.475937,0.0406776,1.27078,0.048913,0.048913,0,184,95.0558,18.0933,1.54633,9.39345,382.338,Nb,O6,Octahedron,184,Nb12WO33,WNb12O33,WR,1826.7,"Nb, W",13,203,202.79,178.76,0.881503,177.9,0.877262,13.8359,1.0643,0.333333,3,4,inf,1,3,Symmetric,10.1021/acsaem.2c03573,,Wadsley-Roth,12,7
1049,2.00296,0.125223,0.0907647,0.0596981,1.27206,0.0163043,0.0163043,0,184,95.0389,18.1403,1.83006,9.70106,383.999,Nb,O6,Octahedron,184,Nb12WO33,WNb12O33,WR,1826.7,"Nb, W",13,203,202.79,178.76,0.881503,177.9,0.877262,13.8359,1.0643,0.333333,3,4,inf,1,3,Symmetric,10.1021/acsaem.2c03573,,Wadsley-Roth,12,7
1050,2.00296,0.125223,0.0907647,0.0596981,1.27206,0.0815217,0.0815217,0,184,95.0389,18.1403,1.83006,9.70106,383.999,Nb,O6,Octahedron,184,Nb12WO33,WNb12O33,WR,1826.7,"Nb, W",13,203,202.79,178.76,0.881503,177.9,0.877262,13.8359,1.0643,0.333333,3,4,inf,1,3,Symmetric,10.1021/acsaem.2c03573,,Wadsley-Roth,12,7
1051,2.00296,0.125223,0.0907647,0.0596981,1.27206,0.0326087,0.0326087,0,184,95.0389,18.1403,1.83006,9.70106,383.999,Nb,O6,Octahedron,184,Nb12WO33,WNb12O33,WR,1826.7,"Nb, W",13,203,202.79,178.76,0.881503,177.9,0.877262,13.8359,1.0643,0.333333,3,4,inf,1,3,Symmetric,10.1021/acsaem.2c03573,,Wadsley-Roth,12,7
1052,2.0154,0.0782474,0.611654,0.036065,1.28008,0.0978261,0.0978261,0,184,95.006,18.0601,1.44228,9.79004,380.498,Nb,O6,Octahedron,184,Nb12WO33,WNb12O33,WR,1826.7,"Nb, W",13,203,202.79,178.76,0.881503,177.9,0.877262,13.8359,1.0643,0.333333,3,4,inf,1,3,Symmetric,10.1021/acsaem.2c03573,,Wadsley-Roth,12,7
1053,2.0154,0.0782474,0.611654,0.036065,1.28008,0.0163043,0.0163043,0,184,95.006,18.0601,1.44228,9.79004,380.498,Nb,O6,Octahedron,184,Nb12WO33,WNb12O33,WR,1826.7,"Nb, W",13,203,202.79,178.76,0.881503,177.9,0.877262,13.8359,1.0643,0.333333,3,4,inf,1,3,Symmetric,10.1021/acsaem.2c03573,,Wadsley-Roth,12,7
1054,2.0154,0.0782474,0.611654,0.036065,1.28008,0.0163043,0.0163043,0,184,95.006,18.0601,1.44228,9.79004,380.498,Nb,O6,Octahedron,184,Nb12WO33,WNb12O33,WR,1826.7,"Nb, W",13,203,202.79,178.76,0.881503,177.9,0.877262,13.8359,1.0643,0.333333,3,4,inf,1,3,Symmetric,10.1021/acsaem.2c03573,,Wadsley-Roth,12,7
1055,2.02351,0.123855,0.0280248,0.0605146,1.28714,0.0163043,0.0163043,0,184,94.9587,18.0152,1.35926,9.82743,378.232,Nb,O6,Octahedron,184,Nb12WO33,WNb12O33,WR,1826.7,"Nb, W",13,203,202.79,178.76,0.881503,177.9,0.877262,13.8359,1.0643,0.333333,3,4,inf,1,3,Symmetric,10.1021/acsaem.2c03573,,Wadsley-Roth,12,7
1056,2.02351,0.123855,0.0280248,0.0605146,1.28714,0.0815217,0.0815217,0,184,94.9587,18.0152,1.35926,9.82743,378.232,Nb,O6,Octahedron,184,Nb12WO33,WNb12O33,WR,1826.7,"Nb, W",13,203,202.79,178.76,0.881503,177.9,0.877262,13.8359,1.0643,0.333333,3,4,inf,1,3,Symmetric,10.1021/acsaem.2c03573,,Wadsley-Roth,12,7
1057,2.02351,0.123855,0.0280248,0.0605146,1.28714,0.0163043,0.0163043,0,184,94.9587,18.0152,1.35926,9.82743,378.232,Nb,O6,Octahedron,184,Nb12WO33,WNb12O33,WR,1826.7,"Nb, W",13,203,202.79,178.76,0.881503,177.9,0.877262,13.8359,1.0643,0.333333,3,4,inf,1,3,Symmetric,10.1021/acsaem.2c03573,,Wadsley-Roth,12,7
1058,2.02351,0.123855,0.0280248,0.0605146,1.28714,0.0163043,0.0163043,0,184,94.9587,18.0152,1.35926,9.82743,378.232,Nb,O6,Octahedron,184,Nb12WO33,WNb12O33,WR,1826.7,"Nb, W",13,203,202.79,178.76,0.881503,177.9,0.877262,13.8359,1.0643,0.333333,3,4,inf,1,3,Symmetric,10.1021/acsaem.2c03573,,Wadsley-Roth,12,7
1059,1.70072,0.002283188,7.29039e-14,0.001342483,2.25154,0.02173913,0,0,184,109.478,1.4859,0.704366,2.52198,2.64952,W,O4,Tetrahedron,184,Nb12WO33,WNb12O33,WR,1826.7,"Nb, W",13,203,202.79,178.76,0.881503,177.9,0.877262,13.8359,1.0643,0.333333,3,4,inf,1,3,Symmetric,10.1021/acsaem.2c03573,,Wadsley-Roth,12,7
1060,1.70072,0.002283188,-7.29E-14,0.001342483,2.25154,0.02173913,0,0,184,109.478,1.4859,0.704366,2.52198,2.64952,W,O4,Tetrahedron,184,Nb12WO33,WNb12O33,WR,1826.7,"Nb, W",13,203,202.79,178.76,0.881503,177.9,0.877262,13.8359,1.0643,0.333333,3,4,inf,1,3,Symmetric,10.1021/acsaem.2c03573,,Wadsley-Roth,12,7
1061,1.70072,0.002283188,-1.09E-13,0.001342483,2.25154,0.0434783,0,0,184,109.478,1.4859,0.704366,2.52198,2.64952,W,O4,Tetrahedron,184,Nb12WO33,WNb12O33,WR,1826.7,"Nb, W",13,203,202.79,178.76,0.881503,177.9,0.877262,13.8359,1.0643,0.333333,3,4,inf,1,3,Symmetric,10.1021/acsaem.2c03573,,Wadsley-Roth,12,7
1062,2.02384,0.151086,0.317255,0.0671121,1.22478,0.166667,0.0416667,0,144,90.0119,3.1783,-0.903526,10.5926,11.02,Nb,O6,Octahedron,144,Nb2ZnO6,ZnNb2O6,,,,,,,,,,,,,,,,,,,,,,,,
1063,2.02384,0.151086,0.317255,0.0671121,1.22478,0.388889,0.0972222,0,144,90.0119,3.1783,-0.903526,10.5926,11.02,Nb,O6,Octahedron,144,Nb2ZnO6,ZnNb2O6,,,,,,,,,,,,,,,,,,,,,,,,
1064,2.02384,0.151086,0.317255,0.0671121,1.22478,0.166667,0.0416667,0,144,90.0119,3.1783,-0.903526,10.5926,11.02,Nb,O6,Octahedron,144,Nb2ZnO6,ZnNb2O6,,,,,,,,,,,,,,,,,,,,,,,,
1065,2.02384,0.151086,0.317255,0.0671121,1.22478,0.611111,0.152778,0,144,90.0119,3.1783,-0.903526,10.5926,11.02,Nb,O6,Octahedron,144,Nb2ZnO6,ZnNb2O6,,,,,,,,,,,,,,,,,,,,,,,,
1066,2.02384,0.151086,0.317255,0.0671121,1.22478,0.333333,0.0833333,0,144,90.0119,3.1783,-0.903526,10.5926,11.02,Nb,O6,Octahedron,144,Nb2ZnO6,ZnNb2O6,,,,,,,,,,,,,,,,,,,,,,,,
1067,2.02384,0.151086,0.317255,0.0671121,1.22478,0.111111,0.0277778,0,144,90.0119,3.1783,-0.903526,10.5926,11.02,Nb,O6,Octahedron,144,Nb2ZnO6,ZnNb2O6,,,,,,,,,,,,,,,,,,,,,,,,
1068,2.09819,0.0567701,0.628681,0.02518959,1.21122,0.277778,0.0694444,0,144,89.9812,2.25892,0.494691,12.0022,5.56699,Zn,O6,Octahedron,144,Nb2ZnO6,ZnNb2O6,,,,,,,,,,,,,,,,,,,,,,,,
1069,2.09819,0.0567701,0.628681,0.02518959,1.21122,0.166667,0.0416667,0,144,89.9812,2.25892,0.494691,12.0022,5.56699,Zn,O6,Octahedron,144,Nb2ZnO6,ZnNb2O6,,,,,,,,,,,,,,,,,,,,,,,,
1070,2.09819,0.0567701,0.628681,0.02518959,1.21122,0.388889,0.0972222,0,144,89.9812,2.25892,0.494691,12.0022,5.56699,Zn,O6,Octahedron,144,Nb2ZnO6,ZnNb2O6,,,,,,,,,,,,,,,,,,,,,,,,
1071,2.09819,0.0567701,0.628681,0.02518959,1.21122,0.0555556,0.0138889,0,144,89.9812,2.25892,0.494691,12.0022,5.56699,Zn,O6,Octahedron,144,Nb2ZnO6,ZnNb2O6,,,,,,,,,,,,,,,,,,,,,,,,